{
  "resourceType": "Consent",
  "id": "11",
  "meta": {
    "versionId": "1",
    "lastUpdated": "2017-04-27T16:20:16.000-04:00"
  },
  "contained": [
    {
      "resourceType": "Practitioner",
      "id": "1013900992",
      "identifier": [
        {
          "system": "http://hl7.org/fhir/sid/us-npi",
          "value": "1013900992"
        }
      ],
      "name": [
        {
          "family": "BAHMANYAR",
          "given": [
            "BIJAN"
          ]
        }
      ],
      "address": [
        {
          "line": [
            "7311 HANOVER PKWY"
          ],
          "city": "GREENBELT",
          "state": "MD",
          "postalCode": "207702033"
        }
      ]
    },
    {
      "resourceType": "Practitioner",
      "id": "1003220674",
      "identifier": [
        {
          "system": "http://hl7.org/fhir/sid/us-npi",
          "value": "1003220674"
        }
      ],
      "name": [
        {
          "family": "EMMANUEL",
          "given": [
            "RUTH"
          ]
        }
      ],
      "address": [
        {
          "line": [
            "8647 GREENBELT RD"
          ],
          "city": "GREENBELT",
          "state": "MD",
          "postalCode": "207702416"
        }
      ]
    }
  ],
  "identifier": {
    "system": "https://bhits.github.io/consent2share/",
    "value": "2UQhikt6cd"
  },
  "status": "active",
  "category": [
    {
      "coding": [
        {
          "system": "http://hl7.org/fhir/v3/ActCode",
          "code": "IDSCL",
          "display": "information disclosure"
        }
      ]
    }
  ],
  "dateTime": "2017-03-27T15:29:35-04:00",
  "period": {
    "start": "2017-03-29T00:00:00-04:00",
    "end": "2017-03-31T00:00:00-04:00"
  },
  "patient": {
    "reference": "Patient/9"
  },
  "consentor": [
    {
      "reference": "Patient/9",
      "display": "Alice Recruit"
    }
  ],
  "organization": {
    "reference": "#1013900992"
  },
  "policy": "2UQhikt6cd",
  "recipient": [
    {
      "reference": "#1003220674"
    }
  ],
  "purpose": [
    {
      "system": "http://hl7.org/fhir/v3/ActReason",
      "code": "TREAT",
      "display": "Treatment"
    }
  ],
  "except": [
    {
      "type": "permit",
      "securityLabel": [
        {
          "system": "http://hl7.org/fhir/v3/ActCode",
          "code": "ETH",
          "display": "Drug use information"
        },
        {
          "system": "https://bhits.github.io/consent2share/",
          "code": "ALC",
          "display": "Alcohol use and Alcoholism Information"
        }
      ]
    }
  ]
}
